Folder: Enhancement-Analysis

File: bend_scan_45p11_45p28.csv
Frequency (cm-1),Normalized YbOH Absorption
17345.1,0.00185624
17345.1,0.00400757
17345.1,0.0031399
17345.1,0.00647086
17345.1,0.00612741
17345.1,0.00530897
17345.1,0.00408741
17345.121,0.00293195
17345.1,0.0011225
17345.1,0.000849259
17345.1,0.00482665
17345.1,0.00102327
17345.125,0.00619986
17345.1,-0.000579738
17345.1,0.00348827
17345.1,0.00671608
17345.1,0.00456559
17345.129,0.00947781
17345.1,0.00375801
17345.1,0.000534207
17345.1,0.00658268
17345.1,0.00609071
17345.133,0.00749703
17345.1,0.00504822
17345.1,0.00491247
17345.1,0.00316758
17345.1,0.00602445
17345.137,0.00270208
17345.1,0.00380313
17345.1,0.00274698
17345.1,0.00476652
17345.1,0.00509635
17345.1,0.00501714
17345.1,0.0047644
17345.1,0.00500996
17345.1,0.00326612
17345.1,0.010173
17345.145,0.00574638
17345.1,0.00459505
17345.1,0.00502451
17345.1,0.00493149
17345.1,0.00416548
17345.1,0.00408336
17345.1,0.00480841
17345.1,0.00433802
17345.1,0.00357792
17345.1,0.00502536
17345.1,0.00268576
17345.2,0.00431243
17345.2,0.00280482
17345.2,0.00339525
17345.2,0.00261715
17345.2,0.00481355
17345.154,0.002184
17345.2,0.00435384
17345.2,0.00422349
17345.2,0.00200905
17345.2,0.00314481
17345.158,0.00472592
17345.2,0.00441858
17345.2,0.00292986
17345.2,0.00258283
17345.2,0.00355209
17345.2,0.00589919
17345.2,0.00266707
17345.2,0.00297964
17345.2,0.00299949
17345.2,0.00342781
17345.2,0.00301202
17345.2,0.00320927
17345.2,0.00529559
17345.2,0.00315147
17345.2,0.00271384
17345.17,0.0037944
17345.2,0.00187986
17345.2,0.00192936
17345.2,0.00293139
17345.2,0.00251862
17345.2,0.00421783
17345.2,0.00110542
17345.2,0.00255753
17345.2,0.00282822
17345.2,0.0042357
17345.2,0.00590005
17345.2,0.00265071
17345.2,0.00233298
17345.2,0.00530189
17345.2,0.00279026
17345.2,0.00262178
17345.2,0.00227639
17345.2,0.00226923
17345.2,0.00245263
17345.2,0.00328575
17345.2,0.00303925
17345.2,0.0046278
17345.2,0.00238135
17345.2,0.00222878
17345.2,0.00304837
17345.185,0.00133924
17345.2,0.0038122
17345.2,0.00237538
17345.2,0.00255649
17345.2,0.00305045
17345.189,0.000650289
17345.2,0.00172038
17345.2,0.00151803
17345.2,0.00401879
17345.2,0.00277763
17345.193,0.00370998
17345.2,0.0027951
17345.2,0.00242471
17345.2,0.00277415
17345.2,0.00207956
17345.2,0.00172876
17345.2,0.00111295
17345.2,0.00156876
17345.2,0.00209098
17345.2,0.002767
17345.2,0.00119511
17345.2,0.00268198
17345.2,0.00171517
17345.2,0.00263088
17345.2,0.0010779
17345.2,0.00226818
17345.2,0.00212063
17345.207,0.00349067
17345.2,0.002661
17345.2,0.00231889
17345.2,0.00202359
17345.2,0.00422329
17345.211,0.00263798
17345.2,0.00453244
17345.2,0.00322056
17345.2,0.001823
17345.2,0.00257285
17345.2,0.00312024
17345.2,0.00203629
17345.2,0.00675051
17345.2,0.00263005
17345.2,0.00140204
17345.2,0.00151556
17345.2,0.00304623
17345.2,0.00335674
17345.2,0.00189446
17345.2,0.0022823
17345.223,0.00303618
17345.2,0.00169903
17345.2,0.00186609
17345.2,0.00297949
17345.2,0.00188659
17345.2,0.00229444
17345.2,0.00184023
17345.2,0.00206777
17345.2,0.00293155
17345.2,0.0039022
17345.231,0.00300728
17345.2,0.00332193
17345.2,0.00113243
17345.2,0.00214131
17345.2,0.00230073
17345.2,0.00161042
17345.2,0.00275575
17345.2,0.00246491
17345.2,0.0024143
17345.2,0.0021252
17345.2,0.00185893
17345.2,0.00119474
17345.2,0.00355728
17345.2,0.00194718
17345.2,0.00168871
17345.2,0.0029222
17345.2,0.000450796
17345.236,0.00238983
17345.2,0.00244404
17345.2,0.00292746
17345.2,0.00150542
17345.2,0.00196813
17345.24,0.00279174
17345.2,0.00327199
17345.2,0.00204985
17345.2,0.00126773
17345.2,0.00120404
17345.244,0.00243167
17345.2,0.00350172
17345.2,0.00110349
17345.2,0.000518884
17345.2,0.0040663
17345.248,0.00142442
17345.2,0.00196089
17345.2,0.00156631
17345.2,0.00190823
17345.2,0.0023006
17345.2,0.0052486
17345.3,0.00372364
17345.3,0.00169128
17345.3,0.00200593
17345.3,0.0037276
17345.3,0.000925508
17345.3,0.00212885
17345.3,0.0047676
17345.3,0.00293436
17345.3,0.00307788
17345.3,0.00228567
17345.3,0.00271278
17345.3,0.00315907
17345.26,0.00443914
17345.3,0.00309091
17345.3,0.0018888
17345.3,0.00161394
17345.3,0.00137923
17345.264,0.00239015
17345.3,0.00312515
17345.3,0.0046396
17345.3,0.00213742
17345.3,0.00163371
17345.268,0.00442878
17345.3,0.00210023
17345.3,0.00309447
17345.3,0.00156817
17345.3,0.00128273
17345.272,0.00217517
17345.3,0.00222496
17345.3,0.00199798
17345.3,0.00287821
17345.275,0.00345999
17345.276,0.00249454
17345.3,0.00217868
17345.3,0.00189225
17345.3,0.0024961
17345.3,0.00296919
17345.3,0.00273167